# Object name: IRAS_07069-1045
# Instrument: FIFI-LS
# z: 0.00005500
# Ref. Wav.: 118.58100000
# Area aperture: 0.00000 degs
"wavelength","flux","eflux","uflux","exposure","atran"
1.182029e+02        nan 0.000000e+00 0.000000e+00 9.216000e+01 9.375452e-01
1.182177e+02        nan 0.000000e+00 0.000000e+00 9.216000e+01 9.350714e-01
1.182324e+02 5.094907e-01 1.333488e-01 4.059273e-01 2.764800e+02 9.321246e-01
1.182472e+02 6.076642e-02 1.100472e-01 4.926829e-02 2.764800e+02 9.289193e-01
1.182619e+02 1.404725e-01 9.537388e-02 1.664006e-01 3.379200e+02 9.257978e-01
1.182767e+02 4.557344e-01 8.582105e-02 4.739397e-01 3.379200e+02 9.231461e-01
1.182914e+02 6.697719e-01 7.787814e-02 6.600189e-01 5.222400e+02 9.212635e-01
1.183062e+02 8.165877e-01 7.195792e-02 7.876218e-01 5.222400e+02 9.202379e-01
1.183209e+02 7.737896e-01 6.650801e-02 7.207689e-01 6.144000e+02 9.199022e-01
1.183357e+02 6.351903e-01 6.243376e-02 5.880189e-01 7.987200e+02 9.199080e-01
1.183504e+02 5.082105e-01 5.860580e-02 4.738236e-01 7.987200e+02 9.198944e-01
1.183652e+02 4.738303e-01 5.605645e-02 4.539841e-01 8.908800e+02 9.196669e-01
1.183799e+02 5.531276e-01 5.392903e-02 5.350412e-01 8.908800e+02 9.192898e-01
1.183947e+02 6.643623e-01 5.256446e-02 6.441976e-01 8.908800e+02 9.190409e-01
1.184094e+02 7.175301e-01 5.149584e-02 6.748547e-01 8.908800e+02 9.192566e-01
1.184242e+02 6.308059e-01 5.079641e-02 5.929192e-01 8.908800e+02 9.201525e-01
1.184389e+02 5.423999e-01 5.006863e-02 5.091519e-01 8.908800e+02 9.217150e-01
1.184537e+02 5.183471e-01 4.939862e-02 4.991222e-01 8.908800e+02 9.237070e-01
1.184684e+02 6.283421e-01 4.863468e-02 6.149676e-01 8.908800e+02 9.257663e-01
1.184832e+02 7.583561e-01 4.809187e-02 7.411938e-01 8.908800e+02 9.275193e-01
1.184979e+02 8.242885e-01 4.756324e-02 7.970420e-01 8.908800e+02 9.286326e-01
1.185127e+02 8.594247e-01 4.716027e-02 8.288181e-01 8.908800e+02 9.287766e-01
1.185274e+02 8.693082e-01 4.677207e-02 8.266875e-01 8.908800e+02 9.275254e-01
1.185422e+02 8.086000e-01 4.663311e-02 7.613796e-01 8.908800e+02 9.242792e-01
1.185569e+02 7.318570e-01 4.652328e-02 6.872169e-01 8.908800e+02 9.183210e-01
1.185717e+02 7.105662e-01 4.669795e-02 6.702087e-01 8.908800e+02 9.090588e-01
1.185864e+02 7.869414e-01 4.715719e-02 7.459789e-01 8.908800e+02 8.964269e-01
1.186012e+02 9.086757e-01 4.793712e-02 8.322645e-01 8.908800e+02 8.813002e-01
1.186159e+02 9.118187e-01 4.878812e-02 8.092028e-01 8.908800e+02 8.656484e-01
1.186307e+02 8.438348e-01 4.955614e-02 7.296416e-01 8.908800e+02 8.522187e-01
1.186454e+02 7.103655e-01 5.013783e-02 6.037777e-01 8.908800e+02 8.437356e-01
1.186602e+02 6.041216e-01 5.057055e-02 5.162383e-01 8.908800e+02 8.418671e-01
1.186749e+02 5.628439e-01 5.046838e-02 4.945467e-01 8.908800e+02 8.464715e-01
1.186897e+02 5.815477e-01 5.041768e-02 5.172945e-01 8.908800e+02 8.554930e-01
1.187044e+02 6.122592e-01 5.040323e-02 5.470294e-01 8.908800e+02 8.656301e-01
1.187192e+02 6.287679e-01 5.030022e-02 5.712095e-01 8.908800e+02 8.735366e-01
1.187339e+02 6.043568e-01 5.081799e-02 5.463162e-01 8.908800e+02 8.770138e-01
1.187487e+02 6.022014e-01 5.124973e-02 5.473090e-01 8.908800e+02 8.757619e-01
1.187634e+02 6.421682e-01 5.233990e-02 5.816000e-01 8.908800e+02 8.713829e-01
1.187782e+02 6.567577e-01 5.322999e-02 5.810574e-01 8.908800e+02 8.666961e-01
1.187929e+02 5.843206e-01 5.465667e-02 5.082504e-01 8.908800e+02 8.646390e-01
1.188077e+02 5.234750e-01 5.611528e-02 4.702500e-01 8.908800e+02 8.671947e-01
1.188224e+02 6.289651e-01 5.803372e-02 5.862204e-01 7.987200e+02 8.747751e-01
1.188372e+02 7.696244e-01 6.019512e-02 7.153368e-01 7.987200e+02 8.862484e-01
1.188519e+02 8.223584e-01 6.273639e-02 7.631377e-01 6.144000e+02 8.995420e-01
1.188667e+02 7.836774e-01 6.564701e-02 7.372701e-01 6.144000e+02 9.124584e-01
1.188814e+02 7.712919e-01 6.951741e-02 7.492987e-01 5.529600e+02 9.233305e-01
1.188962e+02 9.088138e-01 7.412018e-02 8.976576e-01 5.529600e+02 9.312886e-01
1.189109e+02 9.531131e-01 8.134562e-02 9.010757e-01 3.686400e+02 9.361384e-01
1.189257e+02 6.294307e-01 9.070940e-02 5.542704e-01 3.686400e+02 9.380481e-01
1.189404e+02 1.698114e-01 1.060260e-01 1.178091e-01 2.764800e+02 9.372339e-01
1.189552e+02        nan 0.000000e+00 0.000000e+00 2.764800e+02 9.338203e-01
1.189699e+02        nan 0.000000e+00 0.000000e+00 9.216000e+01 9.279263e-01
