# Object name: IRAS_07069-1045
# Instrument: FIFI-LS
# z: 0.00005500
# Ref. Wav.: 118.58100000
# Area aperture: 0.00000 degs
"wavelength","flux","eflux","uflux","exposure","atran"
1.182029e+02        nan 0.000000e+00 0.000000e+00 1.228800e+02 9.375452e-01
1.182177e+02 4.855163e+00 1.211227e-01 4.699393e+00 1.228800e+02 9.350714e-01
1.182324e+02 4.691733e+00 9.308101e-02 4.504143e+00 3.686400e+02 9.321246e-01
1.182472e+02 4.618903e+00 7.650595e-02 4.422871e+00 3.686400e+02 9.289193e-01
1.182619e+02 4.627322e+00 6.587968e-02 4.446654e+00 4.608000e+02 9.257978e-01
1.182767e+02 4.746910e+00 5.934282e-02 4.537681e+00 4.608000e+02 9.231461e-01
1.182914e+02 4.828572e+00 5.383463e-02 4.593803e+00 7.065600e+02 9.212635e-01
1.183062e+02 4.776397e+00 4.972747e-02 4.533816e+00 7.065600e+02 9.202379e-01
1.183209e+02 4.737613e+00 4.611737e-02 4.497975e+00 8.294400e+02 9.199022e-01
1.183357e+02 4.701185e+00 4.327548e-02 4.465223e+00 1.075200e+03 9.199080e-01
1.183504e+02 4.763755e+00 4.086032e-02 4.537149e+00 1.075200e+03 9.198944e-01
1.183652e+02 4.790332e+00 3.887696e-02 4.556691e+00 1.198080e+03 9.196669e-01
1.183799e+02 4.789892e+00 3.739166e-02 4.546746e+00 1.198080e+03 9.192898e-01
1.183947e+02 4.812287e+00 3.626385e-02 4.578265e+00 1.198080e+03 9.190409e-01
1.184094e+02 4.857651e+00 3.543356e-02 4.623985e+00 1.198080e+03 9.192566e-01
1.184242e+02 4.885675e+00 3.481712e-02 4.653315e+00 1.198080e+03 9.201525e-01
1.184389e+02 4.874784e+00 3.427496e-02 4.640842e+00 1.198080e+03 9.217150e-01
1.184537e+02 4.857691e+00 3.388053e-02 4.631446e+00 1.198080e+03 9.237070e-01
1.184684e+02 4.851257e+00 3.337681e-02 4.638209e+00 1.198080e+03 9.257663e-01
1.184832e+02 4.839106e+00 3.303750e-02 4.632139e+00 1.198080e+03 9.275193e-01
1.184979e+02 4.846630e+00 3.267425e-02 4.655391e+00 1.198080e+03 9.286326e-01
1.185127e+02 4.953752e+00 3.248133e-02 4.768291e+00 1.198080e+03 9.287766e-01
1.185274e+02 5.158545e+00 3.222131e-02 4.967861e+00 1.198080e+03 9.275254e-01
1.185422e+02 5.312874e+00 3.206372e-02 5.072587e+00 1.198080e+03 9.242792e-01
1.185569e+02 5.303645e+00 3.199566e-02 5.011507e+00 1.198080e+03 9.183210e-01
1.185717e+02 5.167257e+00 3.204661e-02 4.826352e+00 1.198080e+03 9.090588e-01
1.185864e+02 5.045100e+00 3.239407e-02 4.663576e+00 1.198080e+03 8.964269e-01
1.186012e+02 4.996231e+00 3.283260e-02 4.548583e+00 1.198080e+03 8.813002e-01
1.186159e+02 4.990686e+00 3.339336e-02 4.478997e+00 1.198080e+03 8.656484e-01
1.186307e+02 4.992450e+00 3.394356e-02 4.404203e+00 1.198080e+03 8.522187e-01
1.186454e+02 4.942621e+00 3.431166e-02 4.317178e+00 1.198080e+03 8.437356e-01
1.186602e+02 4.855634e+00 3.454686e-02 4.233206e+00 1.198080e+03 8.418671e-01
1.186749e+02 4.787285e+00 3.451720e-02 4.187133e+00 1.198080e+03 8.464715e-01
1.186897e+02 4.716410e+00 3.441700e-02 4.166053e+00 1.198080e+03 8.554930e-01
1.187044e+02 4.700457e+00 3.438346e-02 4.200199e+00 1.198080e+03 8.656301e-01
1.187192e+02 4.726719e+00 3.441515e-02 4.259712e+00 1.198080e+03 8.735366e-01
1.187339e+02 4.766252e+00 3.465286e-02 4.313089e+00 1.198080e+03 8.770138e-01
1.187487e+02 4.759724e+00 3.510330e-02 4.289514e+00 1.198080e+03 8.757619e-01
1.187634e+02 4.641360e+00 3.565708e-02 4.161243e+00 1.198080e+03 8.713829e-01
1.187782e+02 4.540795e+00 3.631410e-02 4.068208e+00 1.198080e+03 8.666961e-01
1.187929e+02 4.552737e+00 3.717550e-02 4.091112e+00 1.198080e+03 8.646390e-01
1.188077e+02 4.608659e+00 3.810003e-02 4.149930e+00 1.198080e+03 8.671947e-01
1.188224e+02 4.634248e+00 3.941031e-02 4.194151e+00 1.075200e+03 8.747751e-01
1.188372e+02 4.627338e+00 4.091652e-02 4.238442e+00 1.075200e+03 8.862484e-01
1.188519e+02 4.572397e+00 4.263300e-02 4.241398e+00 8.294400e+02 8.995420e-01
1.188667e+02 4.465807e+00 4.480644e-02 4.186966e+00 8.294400e+02 9.124584e-01
1.188814e+02 4.324371e+00 4.733643e-02 4.088619e+00 7.372800e+02 9.233305e-01
1.188962e+02 4.273018e+00 5.052539e-02 4.106694e+00 7.372800e+02 9.312886e-01
1.189109e+02 4.311751e+00 5.495810e-02 4.178679e+00 4.915200e+02 9.361384e-01
1.189257e+02 4.525914e+00 6.099984e-02 4.398713e+00 4.915200e+02 9.380481e-01
1.189404e+02 4.776555e+00 7.011674e-02 4.658861e+00 3.686400e+02 9.372339e-01
1.189552e+02 4.973552e+00 8.448943e-02 4.804328e+00 3.686400e+02 9.338203e-01
1.189699e+02 4.724806e+00 1.074783e-01 4.501894e+00 1.228800e+02 9.279263e-01
