# Object name: IRAS_07069-1045
# Instrument: FIFI-LS
# z: 0.00005500
# Ref. Wav.: 118.58100000
# Area aperture: 0.00000 degs
"wavelength","flux","eflux","uflux","exposure","atran"
1.182029e+02        nan 0.000000e+00 0.000000e+00 1.228800e+02 9.375452e-01
1.182177e+02 4.817596e+00 1.252455e-01 4.667551e+00 1.228800e+02 9.350714e-01
1.182324e+02 4.511538e+00 9.629889e-02 4.290291e+00 3.686400e+02 9.321246e-01
1.182472e+02 4.354986e+00 7.938468e-02 4.185572e+00 3.686400e+02 9.289193e-01
1.182619e+02 4.404111e+00 6.873818e-02 4.217811e+00 4.608000e+02 9.257978e-01
1.182767e+02 4.521232e+00 6.203415e-02 4.322696e+00 4.608000e+02 9.231461e-01
1.182914e+02 4.553809e+00 5.618988e-02 4.335039e+00 7.065600e+02 9.212635e-01
1.183062e+02 4.546623e+00 5.209945e-02 4.317700e+00 7.065600e+02 9.202379e-01
1.183209e+02 4.563161e+00 4.822307e-02 4.344653e+00 8.294400e+02 9.199022e-01
1.183357e+02 4.564086e+00 4.529426e-02 4.333599e+00 1.075200e+03 9.199080e-01
1.183504e+02 4.560217e+00 4.271685e-02 4.329797e+00 1.075200e+03 9.198944e-01
1.183652e+02 4.556268e+00 4.067326e-02 4.329772e+00 1.198080e+03 9.196669e-01
1.183799e+02 4.564531e+00 3.910364e-02 4.336138e+00 1.198080e+03 9.192898e-01
1.183947e+02 4.620421e+00 3.805001e-02 4.396381e+00 1.198080e+03 9.190409e-01
1.184094e+02 4.645773e+00 3.716266e-02 4.424882e+00 1.198080e+03 9.192566e-01
1.184242e+02 4.689596e+00 3.661714e-02 4.465963e+00 1.198080e+03 9.201525e-01
1.184389e+02 4.721291e+00 3.602927e-02 4.498511e+00 1.198080e+03 9.217150e-01
1.184537e+02 4.735127e+00 3.557661e-02 4.515029e+00 1.198080e+03 9.237070e-01
1.184684e+02 4.735230e+00 3.503596e-02 4.524888e+00 1.198080e+03 9.257663e-01
1.184832e+02 4.690896e+00 3.467476e-02 4.494109e+00 1.198080e+03 9.275193e-01
1.184979e+02 4.706603e+00 3.431132e-02 4.528367e+00 1.198080e+03 9.286326e-01
1.185127e+02 4.835230e+00 3.410429e-02 4.658433e+00 1.198080e+03 9.287766e-01
1.185274e+02 5.011382e+00 3.380955e-02 4.817666e+00 1.198080e+03 9.275254e-01
1.185422e+02 5.120272e+00 3.365405e-02 4.887250e+00 1.198080e+03 9.242792e-01
1.185569e+02 5.092140e+00 3.351371e-02 4.820990e+00 1.198080e+03 9.183210e-01
1.185717e+02 5.020347e+00 3.365373e-02 4.698386e+00 1.198080e+03 9.090588e-01
1.185864e+02 4.962411e+00 3.397099e-02 4.587414e+00 1.198080e+03 8.964269e-01
1.186012e+02 4.968388e+00 3.444033e-02 4.524960e+00 1.198080e+03 8.813002e-01
1.186159e+02 4.962828e+00 3.505795e-02 4.446339e+00 1.198080e+03 8.656484e-01
1.186307e+02 4.924459e+00 3.565475e-02 4.346188e+00 1.198080e+03 8.522187e-01
1.186454e+02 4.818801e+00 3.602655e-02 4.196032e+00 1.198080e+03 8.437356e-01
1.186602e+02 4.683251e+00 3.634767e-02 4.080754e+00 1.198080e+03 8.418671e-01
1.186749e+02 4.623216e+00 3.626908e-02 4.047091e+00 1.198080e+03 8.464715e-01
1.186897e+02 4.578264e+00 3.621935e-02 4.050131e+00 1.198080e+03 8.554930e-01
1.187044e+02 4.588821e+00 3.617228e-02 4.105574e+00 1.198080e+03 8.656301e-01
1.187192e+02 4.612563e+00 3.619906e-02 4.156522e+00 1.198080e+03 8.735366e-01
1.187339e+02 4.623104e+00 3.652495e-02 4.174562e+00 1.198080e+03 8.770138e-01
1.187487e+02 4.543362e+00 3.691844e-02 4.091623e+00 1.198080e+03 8.757619e-01
1.187634e+02 4.373327e+00 3.755307e-02 3.919708e+00 1.198080e+03 8.713829e-01
1.187782e+02 4.250732e+00 3.827452e-02 3.811563e+00 1.198080e+03 8.666961e-01
1.187929e+02 4.288014e+00 3.914449e-02 3.854665e+00 1.198080e+03 8.646390e-01
1.188077e+02 4.441358e+00 4.024000e-02 4.000454e+00 1.198080e+03 8.671947e-01
1.188224e+02 4.557234e+00 4.160565e-02 4.134500e+00 1.075200e+03 8.747751e-01
1.188372e+02 4.628074e+00 4.321362e-02 4.234394e+00 1.075200e+03 8.862484e-01
1.188519e+02 4.608059e+00 4.507675e-02 4.272556e+00 8.294400e+02 8.995420e-01
1.188667e+02 4.518071e+00 4.721130e-02 4.238639e+00 8.294400e+02 9.124584e-01
1.188814e+02 4.397174e+00 5.003937e-02 4.173446e+00 7.372800e+02 9.233305e-01
1.188962e+02 4.366311e+00 5.327713e-02 4.192233e+00 7.372800e+02 9.312886e-01
1.189109e+02 4.431455e+00 5.811502e-02 4.294475e+00 4.915200e+02 9.361384e-01
1.189257e+02 4.656828e+00 6.448644e-02 4.545752e+00 4.915200e+02 9.380481e-01
1.189404e+02 5.002558e+00 7.465280e-02 4.881316e+00 3.686400e+02 9.372339e-01
1.189552e+02 5.127836e+00 9.008578e-02 4.968313e+00 3.686400e+02 9.338203e-01
1.189699e+02 4.829688e+00 1.176710e-01 4.539384e+00 1.228800e+02 9.279263e-01
